onset	duration	sample	value	event_code	user_answer	correct_answer
0	n/a	0	break cnt	break cnt	n/a	n/a
55.844	n/a	27922	symbolSearch_start	92	n/a	n/a
58.794	n/a	29397	newPage	20	n/a	n/a
64.528	n/a	32264	trialResponse	14	0	0
67.536	n/a	33768	trialResponse	14	1	1
71.148	n/a	35574	trialResponse	14	0	0
77.442	n/a	38721	trialResponse	14	0	0
82.204	n/a	41102	trialResponse	14	0	0
86.196	n/a	43098	trialResponse	14	1	1
90.142	n/a	45071	trialResponse	14	0	0
94.26	n/a	47130	trialResponse	14	1	1
100.998	n/a	50499	trialResponse	14	0	0
107.324	n/a	53662	trialResponse	14	0	0
112.564	n/a	56282	trialResponse	14	0	0
115.38	n/a	57690	trialResponse	14	1	1
118.15	n/a	59075	trialResponse	14	0	0
121.044	n/a	60522	trialResponse	14	1	1
123.572	n/a	61786	trialResponse	14	1	1
126.092	n/a	63046	newPage	20	n/a	n/a
134.484	n/a	67242	trialResponse	14	1	1
138.036	n/a	69018	trialResponse	14	1	1
144.414	n/a	72207	trialResponse	14	0	0
146.716	n/a	73358	trialResponse	14	1	1
154.34	n/a	77170	trialResponse	14	0	0
165.652	n/a	82826	trialResponse	14	1	1
175.748	n/a	87874	trialResponse	14	0	0
178.812	n/a	89406	trialResponse	14	1	1
178.82	n/a	89410	newPage	20	n/a	n/a
190.679	n/a	95339.5	boundary	boundary	n/a	n/a
