onset	duration	sample	value	event_code	user_answer	correct_answer
0	n/a	0	break cnt	break cnt	n/a	n/a
42.08	n/a	21040	symbolSearch_start	92	n/a	n/a
44.99	n/a	22495	newPage	20	n/a	n/a
50.032	n/a	25016	trialResponse	14	0	0
53.824	n/a	26912	trialResponse	14	1	1
58.108	n/a	29054	trialResponse	14	0	0
64.846	n/a	32423	trialResponse	14	0	0
73.092	n/a	36546	trialResponse	14	0	0
77.742	n/a	38871	trialResponse	14	1	1
84.27	n/a	42135	trialResponse	14	0	0
89.972	n/a	44986	trialResponse	14	1	1
97.51	n/a	48755	trialResponse	14	0	0
101.66	n/a	50830	trialResponse	14	0	0
107.758	n/a	53879	trialResponse	14	0	0
112.58	n/a	56290	trialResponse	14	1	1
115.604	n/a	57802	trialResponse	14	0	0
119.638	n/a	59819	trialResponse	14	1	1
122.142	n/a	61071	trialResponse	14	1	1
124.486	n/a	62243	newPage	20	n/a	n/a
134.508	n/a	67254	trialResponse	14	1	1
139.236	n/a	69618	trialResponse	14	1	1
144.382	n/a	72191	trialResponse	14	0	0
150.678	n/a	75339	trialResponse	14	1	1
156.166	n/a	78083	trialResponse	14	0	0
160.068	n/a	80034	trialResponse	14	1	1
168.014	n/a	84007	trialResponse	14	0	0
168.022	n/a	84011	newPage	20	n/a	n/a
179.281	n/a	89640.5	boundary	boundary	n/a	n/a
