onset	duration	sample	value	event_code	user_answer	correct_answer
0	n/a	0	break cnt	break cnt	n/a	n/a
32.382	n/a	16191	symbolSearch_start	92	n/a	n/a
35.302	n/a	17651	newPage	20	n/a	n/a
47.802	n/a	23901	trialResponse	14	0	0
54.042	n/a	27021	trialResponse	14	1	1
70.868	n/a	35434	trialResponse	14	0	0
80.268	n/a	40134	trialResponse	14	0	0
91.132	n/a	45566	trialResponse	14	0	0
95.814	n/a	47907	trialResponse	14	1	1
102.574	n/a	51287	trialResponse	14	0	0
107.854	n/a	53927	trialResponse	14	1	1
113.862	n/a	56931	trialResponse	14	0	0
125.34	n/a	62670	trialResponse	14	0	0
130.342	n/a	65171	trialResponse	14	0	0
133.478	n/a	66739	trialResponse	14	1	1
145.406	n/a	72703	trialResponse	14	0	0
149.87	n/a	74935	trialResponse	14	1	1
153.256	n/a	76628	trialResponse	14	1	1
154.422	n/a	77211	newPage	20	n/a	n/a
160.686	n/a	80343	trialResponse	14	1	1
160.7	n/a	80350	newPage	20	n/a	n/a
172.329	n/a	86164.5	boundary	boundary	n/a	n/a
